RatingBlock,Image,Gender,AgeGroup,RatingBlockOrder.thisRepN,RatingBlockOrder.thisTrialN,RatingBlockOrder.thisN,RatingBlockOrder.thisIndex,Ratingtrials.thisRepN,Ratingtrials.thisTrialN,Ratingtrials.thisN,Ratingtrials.thisIndex,RInstr.started,RInstr.stopped,RKey.keys,RKey.rt,RKey.started,RKey.stopped,image_5.started,image_5.stopped,slider.response,slider.rt,slider.started,slider.stopped,NextBu.started,NextBu.stopped,mouse_5.x,mouse_5.y,mouse_5.leftButton,mouse_5.midButton,mouse_5.rightButton,mouse_5.clicked_name,mouse_5.started,mouse_5.stopped,text_4.started,text_4.stopped,text_5.started,text_5.stopped,ITI,text.started,text.stopped,EndText.started,EndText.stopped,MacID,Gender,Age,Ethnicity (e.g., African, Asian, & Caucasian),date,expName,psychopyVersion,frameRate,
,,,,,,,,,,,,7.946924708987353,None,space,0.7827697910252027,7.946924708987353,None,,,,,,,,,,,,,,,,,,,,,,,,,,,,,,2021_Oct_12_1938,FatFaceOnline,2021.2.3,59.598558888518404,
TrialCondition_B.xslx,images/sA-M-ver4.jpg,,senioradult,0,0,0,1,0,0,0,16,,,,,,,8.944765374995768,None,51.11111111111111,9.503584208985558,9.083281333994819,None,9.083281333994819,None,0.044444444444444446,-0.4255555555555556,1,0,0,NextBu,0.3033887330093421,None,9.083281333994819,None,9.083281333994819,None,1.4070837818924313,19.014563584001735,None,,,,,,,2021_Oct_12_1938,FatFaceOnline,2021.2.3,59.598558888518404,
TrialCondition_B.xslx,images/sA-F-ver7.jpg,,senioradult,0,0,0,1,0,1,1,19,,,,,,,20.455100458988454,None,49.666666666666664,1.3675664170004893,20.74814083398087,None,20.74814083398087,None,0.0022222222222222222,-0.39111111111111113,1,0,0,NextBu,0.3133389840077143,None,20.74814083398087,None,20.74814083398087,None,0.7548111425688656,22.38096445897827,None,,,,,,,2021_Oct_12_1938,FatFaceOnline,2021.2.3,59.598558888518404,
TrialCondition_B.xslx,images/yA-M-ver7.jpg,,youngadult,0,0,0,1,0,2,2,9,,,,,,,23.150950084003853,None,48.77777777777778,1.0720321250264533,23.44799591699848,None,23.44799591699848,None,-0.006666666666666667,-0.38666666666666666,1,0,0,NextBu,0.30522046601981856,None,23.44799591699848,None,23.44799591699848,None,1.3627555204850559,26.16516870900523,None,,,,,,,2021_Oct_12_1938,FatFaceOnline,2021.2.3,59.598558888518404,
TrialCondition_B.xslx,images/yA-F-ver5.jpg,,youngadult,0,0,0,1,0,3,3,11,,,,,,,27.53615924998303,None,30.777777777777782,1.0874047499964945,27.831645250000292,None,27.831645250000292,None,-0.014444444444444444,-0.41444444444444445,1,0,0,NextBu,0.3021006750059314,None,27.831645250000292,None,27.831645250000292,None,1.0393395936062686,29.28083904198138,None,,,,,,,2021_Oct_12_1938,FatFaceOnline,2021.2.3,59.598558888518404,
TrialCondition_B.xslx,images/adl-F-ver8.jpg,,adolescent,0,0,0,1,0,4,4,7,,,,,,,30.332146500004455,None,70.33333333333334,1.3574580409913324,30.63128320898977,None,30.63128320898977,None,0.03666666666666667,-0.39,1,0,0,NextBu,0.30890334100695327,None,30.63128320898977,None,30.63128320898977,None,0.6268023446587904,32.56430504200398,None,,,,,,,2021_Oct_12_1938,FatFaceOnline,2021.2.3,59.598558888518404,
TrialCondition_B.xslx,images/chld-F-ver2.jpg,,child,0,0,0,1,0,5,5,2,,,,,,,33.20523641697946,None,50.44444444444445,1.2007809579954483,33.49809120898135,None,33.49809120898135,None,-0.0022222222222222222,-0.38666666666666666,0,0,0,NextBu,0.3127081409911625,None,33.49809120898135,None,33.49809120898135,None,1.1048550648751583,35.21430224998039,None,,,,,,,2021_Oct_12_1938,FatFaceOnline,2021.2.3,59.598558888518404,
TrialCondition_B.xslx,images/yA-F-ver2.jpg,,youngadult,0,0,0,1,0,6,6,10,,,,,,,36.334005166980205,None,37.888888888888886,1.0053015829762444,36.63083858398022,None,36.63083858398022,None,-0.023333333333333334,-0.37777777777777777,1,0,0,NextBu,0.3041171340155415,None,36.63083858398022,None,36.63083858398022,None,0.680816195214454,37.89742112500244,None,,,,,,,2021_Oct_12_1938,FatFaceOnline,2021.2.3,59.598558888518404,
TrialCondition_B.xslx,images/midA-F-ver2.jpg,,midadult,0,0,0,1,0,7,7,14,,,,,,,38.59487345899106,None,92.77777777777779,0.9939347079780418,38.88106225000229,None,38.88106225000229,None,0.04,-0.38,1,0,0,NextBu,0.2997227239829954,None,38.88106225000229,None,38.88106225000229,None,1.254602754533483,40.18134212499717,None,,,,,,,2021_Oct_12_1938,FatFaceOnline,2021.2.3,59.598558888518404,
TrialCondition_B.xslx,images/midA-F-ver3.jpg,,midadult,0,0,0,1,0,8,8,15,,,,,,,41.46530724997865,None,65.77777777777779,1.058296708011767,41.765000624989625,None,41.765000624989625,None,0.07,-0.37666666666666665,1,0,0,NextBu,0.31018968296120875,None,41.765000624989625,None,41.765000624989625,None,0.7447179245403635,43.11465849998058,None,,,,,,,2021_Oct_12_1938,FatFaceOnline,2021.2.3,59.598558888518404,
TrialCondition_B.xslx,images/midA-M-ver5.jpg,,midadult,0,0,0,1,0,9,9,12,,,,,,,43.88361729198368,None,48.22222222222222,0.9563327499781735,44.18123137499788,None,44.18123137499788,None,-0.016666666666666666,-0.37555555555555553,1,0,0,NextBu,0.3065074750047643,None,44.18123137499788,None,44.18123137499788,None,0.6874075317120598,45.31403945898637,None,,,,,,,2021_Oct_12_1938,FatFaceOnline,2021.2.3,59.598558888518404,
TrialCondition_B.xslx,images/adl-F-ver5.jpg,,adolescent,0,0,0,1,0,10,10,6,,,,,,,46.01535854200483,None,37.33333333333333,1.5415548339951783,46.314954874978866,None,46.314954874978866,None,0.0044444444444444444,-0.3811111111111111,1,0,0,NextBu,0.30996709200553596,None,46.314954874978866,None,46.314954874978866,None,0.691263388409011,48.181195791985374,None,,,,,,,2021_Oct_12_1938,FatFaceOnline,2021.2.3,59.598558888518404,
TrialCondition_B.xslx,images/adl-M-ver2.jpg,,adolescent,0,0,0,1,0,11,11,4,,,,,,,48.88138879198232,None,64.55555555555556,1.0444318329973612,49.16538487499929,None,49.16538487499929,None,0.0,-0.4033333333333333,1,0,0,NextBu,0.29975763300899416,None,49.16538487499929,None,49.16538487499929,None,1.0124760496146636,50.48165008399519,None,,,,,,,2021_Oct_12_1938,FatFaceOnline,2021.2.3,59.598558888518404,
TrialCondition_B.xslx,images/chld-F-ver3.jpg,,child,0,0,0,1,0,12,12,3,,,,,,,51.505821583996294,None,81.44444444444446,0.9840246250096243,51.79786554200109,None,51.79786554200109,None,-0.01,-0.4122222222222222,1,0,0,NextBu,0.31186543198418804,None,51.79786554200109,None,51.79786554200109,None,1.2461527802445707,53.06379795898101,None,,,,,,,2021_Oct_12_1938,FatFaceOnline,2021.2.3,59.598558888518404,
TrialCondition_B.xslx,images/sA-M-ver7.jpg,,senioradult,0,0,0,1,0,13,13,17,,,,,,,54.33405533398036,None,24.555555555555557,6.472985000000335,54.631623083987506,None,54.631623083987506,None,-0.027777777777777776,-0.3888888888888889,1,0,0,NextBu,0.30687380899325944,None,54.631623083987506,None,54.631623083987506,None,1.3583121868400074,62.2981719590025,None,,,,,,,2021_Oct_12_1938,FatFaceOnline,2021.2.3,59.598558888518404,
TrialCondition_B.xslx,images/adl-M-ver3.jpg,,adolescent,0,0,0,1,0,14,14,5,,,,,,,63.665252042002976,None,57.44444444444444,1.2762062920082826,63.965647749981144,None,63.965647749981144,None,0.0044444444444444444,-0.4066666666666667,1,0,0,NextBu,0.3145477999933064,None,63.965647749981144,None,63.965647749981144,None,0.5223316646825527,70.31463995898957,None,,,,,,,2021_Oct_12_1938,FatFaceOnline,2021.2.3,59.598558888518404,
TrialCondition_B.xslx,images/chld-M-ver3.jpg,,child,0,0,0,1,0,15,15,1,,,,,,,70.85294016698026,None,60.111111111111114,1.270495208009379,71.1486266249849,None,71.1486266249849,None,0.03222222222222222,-0.3933333333333333,1,0,0,NextBu,0.30139684202731587,None,71.1486266249849,None,71.1486266249849,None,1.4006857660915788,72.81494524999289,None,,,,,,,2021_Oct_12_1938,FatFaceOnline,2021.2.3,59.598558888518404,
TrialCondition_B.xslx,images/sA-F-ver1.jpg,,senioradult,0,0,0,1,0,16,16,18,,,,,,,74.2350052089896,None,49.111111111111114,1.5717035830020905,74.53209024999524,None,74.53209024999524,None,0.042222222222222223,-0.4122222222222222,1,0,0,NextBu,0.3049111420114059,None,74.53209024999524,None,74.53209024999524,None,0.5571507385014752,85.01493383399793,None,,,,,,,2021_Oct_12_1938,FatFaceOnline,2021.2.3,59.598558888518404,
TrialCondition_B.xslx,images/chld-M-ver2.jpg,,child,0,0,0,1,0,17,17,0,,,,,,,85.58763779199217,None,55.333333333333336,2.235631833988009,85.86498295899946,None,85.86498295899946,None,0.04,-0.43333333333333335,1,0,0,NextBu,0.31583714301814325,None,85.86498295899946,None,85.86498295899946,None,1.3614818772804826,88.53159383399179,None,,,,,,,2021_Oct_12_1938,FatFaceOnline,2021.2.3,59.598558888518404,
TrialCondition_B.xslx,images/midA-M-ver6.jpg,,midadult,0,0,0,1,0,18,18,13,,,,,,,89.91276562499115,None,84.11111111111111,1.194076915999176,90.19873966698651,None,90.19873966698651,None,0.021111111111111112,-0.4166666666666667,1,0,0,NextBu,0.2996043499733787,None,90.19873966698651,None,90.19873966698651,None,1.3424408584270338,93.11521829199046,None,,,,,,,2021_Oct_12_1938,FatFaceOnline,2021.2.3,59.598558888518404,
TrialCondition_B.xslx,images/yA-M-ver5.jpg,,youngadult,0,0,0,1,0,19,19,8,,,,,,,94.47037841699785,None,49.888888888888886,2.421500583004672,94.76555516698863,None,94.76555516698863,None,0.0033333333333333335,-0.3711111111111111,1,0,0,NextBu,0.3014400919782929,None,94.76555516698863,None,94.76555516698863,None,1.1755011527478738,97.71571962500457,None,,,,,,,2021_Oct_12_1938,FatFaceOnline,2021.2.3,59.598558888518404,
TrialCondition_B.xslx,,,,0,0,0,1,,,,,,,,,,,,,,,,,,,,,,,,,,,,,,,,,,,,,,,,2021_Oct_12_1938,FatFaceOnline,2021.2.3,59.598558888518404,
TrialCondition_A.xslx,images/sA-F-ver7.jpg,,senioradult,0,1,1,0,0,0,0,19,,,,,,,98.92135512499954,None,40.33333333333333,0.9194946660136338,99.21477783398586,None,99.21477783398586,None,-0.04555555555555556,-0.37,1,0,0,NextBu,0.31497119201230817,None,99.21477783398586,None,99.21477783398586,None,1.2709090684705144,100.43181454198202,None,,,,,,,2021_Oct_12_1938,FatFaceOnline,2021.2.3,59.598558888518404,
TrialCondition_A.xslx,images/chld-F-ver2.jpg,,child,0,1,1,0,0,1,1,2,,,,,,,101.72514883399708,None,55.44444444444444,0.8486459580017254,102.01640545899863,None,102.01640545899863,None,-0.0033333333333333335,-0.37777777777777777,1,0,0,NextBu,0.3089594739722088,None,102.01640545899863,None,102.01640545899863,None,1.1725544800610335,103.11464841698762,None,,,,,,,2021_Oct_12_1938,FatFaceOnline,2021.2.3,59.598558888518404,
TrialCondition_A.xslx,images/chld-M-ver2.jpg,,child,0,1,1,0,0,2,2,0,,,,,,,104.30326512499596,None,85.66666666666667,1.4880596660077572,104.59899837500416,None,104.59899837500416,None,0.01888888888888889,-0.4122222222222222,0,0,0,NextBu,0.3025251740182284,None,104.59899837500416,None,104.59899837500416,None,0.5987065547657987,108.26527025000541,None,,,,,,,2021_Oct_12_1938,FatFaceOnline,2021.2.3,59.598558888518404,
TrialCondition_A.xslx,images/adl-F-ver8.jpg,,adolescent,0,1,1,0,0,3,3,7,,,,,,,108.86849816699396,None,28.77777777777778,1.189457833999768,109.16606933399453,None,109.16606933399453,None,-0.027777777777777776,-0.4033333333333333,1,0,0,NextBu,0.310477966995677,None,109.16606933399453,None,109.16606933399453,None,0.9401194078262296,111.49845937499776,None,,,,,,,2021_Oct_12_1938,FatFaceOnline,2021.2.3,59.598558888518404,
TrialCondition_A.xslx,images/midA-M-ver6.jpg,,midadult,0,1,1,0,0,4,4,13,,,,,,,112.46433237500605,None,46.44444444444444,1.292707500018878,112.76550704200054,None,112.76550704200054,None,-0.0022222222222222222,-0.39222222222222225,1,0,0,NextBu,0.3135000170150306,None,112.76550704200054,None,112.76550704200054,None,0.7893174075621009,114.51548999999068,None,,,,,,,2021_Oct_12_1938,FatFaceOnline,2021.2.3,59.598558888518404,
TrialCondition_A.xslx,images/yA-F-ver5.jpg,,youngadult,0,1,1,0,0,5,5,11,,,,,,,115.31740595898009,None,61.22222222222222,1.2902462919882964,115.61852062499383,None,115.61852062499383,None,0.06888888888888889,-0.38222222222222224,1,0,0,NextBu,0.3102644250029698,None,115.61852062499383,None,115.61852062499383,None,0.5781833372807331,117.18215999999666,None,,,,,,,2021_Oct_12_1938,FatFaceOnline,2021.2.3,59.598558888518404,
TrialCondition_A.xslx,images/chld-M-ver3.jpg,,child,0,1,1,0,0,6,6,1,,,,,,,117.76992637498188,None,54.11111111111111,0.820698125025956,118.064808583993,None,118.064808583993,None,0.03111111111111111,-0.38555555555555554,1,0,0,NextBu,0.3016308000078425,None,118.064808583993,None,118.064808583993,None,1.4986215234286249,119.06508374999976,None,,,,,,,2021_Oct_12_1938,FatFaceOnline,2021.2.3,59.598558888518404,
TrialCondition_A.xslx,images/yA-F-ver2.jpg,,youngadult,0,1,1,0,0,7,7,10,,,,,,,120.56925599998794,None,49.0,1.1044459579861723,120.86606041699997,None,120.86606041699997,None,-0.0044444444444444444,-0.37333333333333335,1,0,0,NextBu,0.30386771701159887,None,120.86606041699997,None,120.86606041699997,None,1.2037435754869135,122.13210941699799,None,,,,,,,2021_Oct_12_1938,FatFaceOnline,2021.2.3,59.598558888518404,
TrialCondition_A.xslx,images/sA-M-ver4.jpg,,senioradult,0,1,1,0,0,8,8,16,,,,,,,123.36913208398619,None,40.55555555555556,1.33845641699736,123.66518720900058,None,123.66518720900058,None,-0.02,-0.38666666666666666,1,0,0,NextBu,0.3049325169704389,None,123.66518720900058,None,123.66518720900058,None,1.0869023213082347,125.59892729198327,None,,,,,,,2021_Oct_12_1938,FatFaceOnline,2021.2.3,59.598558888518404,
TrialCondition_A.xslx,images/midA-F-ver3.jpg,,midadult,0,1,1,0,0,9,9,15,,,,,,,126.71858958399389,None,24.88888888888889,1.423159541998757,127.01577699999325,None,127.01577699999325,None,-0.023333333333333334,-0.41555555555555557,1,0,0,NextBu,0.3053279329906218,None,127.01577699999325,None,127.01577699999325,None,0.6381849872832621,128.682078791986,None,,,,,,,2021_Oct_12_1938,FatFaceOnline,2021.2.3,59.598558888518404,
TrialCondition_A.xslx,images/adl-M-ver2.jpg,,adolescent,0,1,1,0,0,10,10,4,,,,,,,129.3318065420026,None,55.77777777777778,1.4444435840123333,129.632565042004,None,129.632565042004,None,0.04,-0.3811111111111111,1,0,0,NextBu,0.3154532580228988,None,129.632565042004,None,129.632565042004,None,1.2721044280171325,131.41509850000148,None,,,,,,,2021_Oct_12_1938,FatFaceOnline,2021.2.3,59.598558888518404,
TrialCondition_A.xslx,images/yA-M-ver5.jpg,,youngadult,0,1,1,0,0,11,11,8,,,,,,,132.69972145897918,None,58.55555555555556,0.9418251249880996,132.99913579199347,None,132.99913579199347,None,0.0,-0.3811111111111111,1,0,0,NextBu,0.309348258015234,None,132.99913579199347,None,132.99913579199347,None,1.267333226997956,134.13214762500138,None,,,,,,,2021_Oct_12_1938,FatFaceOnline,2021.2.3,59.598558888518404,
TrialCondition_A.xslx,images/midA-M-ver5.jpg,,midadult,0,1,1,0,0,12,12,12,,,,,,,135.41708349998225,None,59.22222222222222,1.0742178749933373,135.71597591700265,None,135.71597591700265,None,0.034444444444444444,-0.37,1,0,0,NextBu,0.30876384998555295,None,135.71597591700265,None,135.71597591700265,None,1.3213127634820705,136.94895066699246,None,,,,,,,2021_Oct_12_1938,FatFaceOnline,2021.2.3,59.598558888518404,
TrialCondition_A.xslx,images/adl-F-ver5.jpg,,adolescent,0,1,1,0,0,13,13,6,,,,,,,138.2828313339851,None,50.33333333333333,0.8263940420001745,138.58235874999082,None,138.58235874999082,None,0.008888888888888889,-0.37,1,0,0,NextBu,0.31193042400991544,None,138.58235874999082,None,138.58235874999082,None,0.6812055546919082,139.51582679199055,None,,,,,,,2021_Oct_12_1938,FatFaceOnline,2021.2.3,59.598558888518404,
TrialCondition_A.xslx,images/sA-M-ver7.jpg,,senioradult,0,1,1,0,0,14,14,17,,,,,,,140.21910274997936,None,51.11111111111111,0.805863124987809,140.51575658400543,None,140.51575658400543,None,0.03111111111111111,-0.4311111111111111,1,0,0,NextBu,0.30465364202973433,None,140.51575658400543,None,140.51575658400543,None,1.2809277569371018,141.59903312497772,None,,,,,,,2021_Oct_12_1938,FatFaceOnline,2021.2.3,59.598558888518404,
TrialCondition_A.xslx,images/chld-F-ver3.jpg,,child,0,1,1,0,0,15,15,3,,,,,,,142.89028224998037,None,73.88888888888889,1.0673307499964722,143.18284095899435,None,143.18284095899435,None,0.06555555555555556,-0.3788888888888889,1,0,0,NextBu,0.3124033919884823,None,143.18284095899435,None,143.18284095899435,None,1.0175809331285257,144.44804833398666,None,,,,,,,2021_Oct_12_1938,FatFaceOnline,2021.2.3,59.598558888518404,
TrialCondition_A.xslx,images/midA-F-ver2.jpg,,midadult,0,1,1,0,0,16,16,14,,,,,,,145.48139437500504,None,77.44444444444444,1.176015874982113,145.78298124999856,None,145.78298124999856,None,0.02666666666666667,-0.3811111111111111,1,0,0,NextBu,0.31370384999900125,None,145.78298124999856,None,145.78298124999856,None,1.207956738892403,147.165678749996,None,,,,,,,2021_Oct_12_1938,FatFaceOnline,2021.2.3,59.598558888518404,
TrialCondition_A.xslx,images/adl-M-ver3.jpg,,adolescent,0,1,1,0,0,17,17,5,,,,,,,148.38266629198915,None,66.88888888888889,0.843593375000637,148.68273458399926,None,148.68273458399926,None,0.04555555555555556,-0.3888888888888889,1,0,0,NextBu,0.3129922170192003,None,148.68273458399926,None,148.68273458399926,None,1.2770337179064999,149.699024542002,None,,,,,,,2021_Oct_12_1938,FatFaceOnline,2021.2.3,59.598558888518404,
TrialCondition_A.xslx,images/sA-F-ver1.jpg,,senioradult,0,1,1,0,0,18,18,18,,,,,,,151.00282224998227,None,86.55555555555556,1.2550123330147471,151.2994651249901,None,151.2994651249901,None,0.044444444444444446,-0.42333333333333334,0,0,0,NextBu,0.30464351701084524,None,151.2994651249901,None,151.2994651249901,None,1.256127887669687,153.3160243750026,None,,,,,,,2021_Oct_12_1938,FatFaceOnline,2021.2.3,59.598558888518404,
TrialCondition_A.xslx,images/yA-M-ver7.jpg,,youngadult,0,1,1,0,0,19,19,9,,,,,,,154.58877470900188,None,27.222222222222225,1.5535036249784753,154.88267008398543,None,154.88267008398543,None,0.05555555555555555,-0.39666666666666667,1,0,0,NextBu,0.3156953080033418,None,154.88267008398543,None,154.88267008398543,None,0.9492760873689008,156.94980795899755,None,,,,,,,2021_Oct_12_1938,FatFaceOnline,2021.2.3,59.598558888518404,
TrialCondition_A.xslx,,,,0,1,1,0,,,,,,,,,,,,,,,,,,,,,,,,,,,,,,,,,,,,,,,,2021_Oct_12_1938,FatFaceOnline,2021.2.3,59.598558888518404,
,,,,,,,,,,,,,,,,,,,,,,,,,,,,,,,,,,,,,,,,,157.89930200000526,None,,,,,,,,,
