RatingBlock,Image,Gender,AgeGroup,RatingBlockOrder.thisRepN,RatingBlockOrder.thisTrialN,RatingBlockOrder.thisN,RatingBlockOrder.thisIndex,Ratingtrials.thisRepN,Ratingtrials.thisTrialN,Ratingtrials.thisN,Ratingtrials.thisIndex,RInstr.started,RInstr.stopped,RKey.keys,RKey.rt,RKey.started,RKey.stopped,image_5.started,image_5.stopped,slider.response,slider.rt,slider.started,slider.stopped,NextBu.started,NextBu.stopped,mouse_5.x,mouse_5.y,mouse_5.leftButton,mouse_5.midButton,mouse_5.rightButton,mouse_5.clicked_name,mouse_5.started,mouse_5.stopped,text_4.started,text_4.stopped,text_5.started,text_5.stopped,ITI,text.started,text.stopped,MacID,Gender,Age,Ethnicity (e.g., African, Asian, & Caucasian),date,expName,psychopyVersion,frameRate,
,,,,,,,,,,,,10.866484406054951,None,space,0.43344291497487575,10.866484406054951,None,,,,,,,,,,,,,,,,,,,,,,,,,,,,2021_Nov_12_1516,FatFaceOnline,2021.2.3,60.37043372167481,
TrialCondition_D.xlsx,Images/midA-M-ver6.jpg,,midadult,0,0,0,3,0,0,0,1,,,,,,,11.413692040019669,None,50.66666666666667,1.4423717230092734,11.70025559910573,None,11.70025559910573,None,0.021111111111111112,-0.38333333333333336,1,0,0,NextBu,0.3343878824962303,None,11.70025559910573,None,11.70025559910573,None,0.6193995347205344,13.592885704012588,None,,,,,2021_Nov_12_1516,FatFaceOnline,2021.2.3,60.37043372167481,
TrialCondition_D.xlsx,Images/midA-F-ver2.jpg,,midadult,0,0,0,3,0,1,1,2,,,,,,,14.27997304208111,None,50.66666666666667,0.7426582020707428,14.5627645800123,None,14.5627645800123,None,-0.005555555555555556,-0.3611111111111111,1,0,0,NextBu,0.3047456881031394,None,14.5627645800123,None,14.5627645800123,None,0.9939490279780832,15.526448738062754,None,,,,,2021_Nov_12_1516,FatFaceOnline,2021.2.3,60.37043372167481,
TrialCondition_D.xlsx,Images/midA-M-ver5.jpg,,midadult,0,0,0,3,0,2,2,0,,,,,,,16.58646529703401,None,49.77777777777778,0.9615250020287931,16.88319472002331,None,16.88319472002331,None,-0.0022222222222222222,-0.37222222222222223,1,0,0,NextBu,0.31870108214206994,None,16.88319472002331,None,16.88319472002331,None,1.3875799526547714,17.829212203039788,None,,,,,2021_Nov_12_1516,FatFaceOnline,2021.2.3,60.37043372167481,
TrialCondition_D.xlsx,Images/midA-F-ver3.jpg,,midadult,0,0,0,3,0,3,3,3,,,,,,,19.27731269900687,None,50.44444444444445,0.7329837119905278,19.565076771075837,None,19.565076771075837,None,0.0044444444444444444,-0.3622222222222222,1,0,0,NextBu,0.3166983831906691,None,19.565076771075837,None,19.565076771075837,None,0.9733354971719265,20.320125928032212,None,,,,,2021_Nov_12_1516,FatFaceOnline,2021.2.3,60.37043372167481,
TrialCondition_D.xlsx,,,,0,0,0,3,,,,,,,,,,,,,,,,,,,,,,,,,,,,,,,,,,,,,,2021_Nov_12_1516,FatFaceOnline,2021.2.3,60.37043372167481,
None,,,,0,1,1,7,0,0,0,0,,,,,,,21.34168227610644,None,50.22222222222222,0.7306720640044659,21.632590556051582,None,21.632590556051582,None,0.0022222222222222222,-0.36666666666666664,1,0,0,NextBu,0.3161466122837737,None,21.632590556051582,None,21.632590556051582,None,1.2631050697951678,22.405682166107,None,,,,,2021_Nov_12_1516,FatFaceOnline,2021.2.3,60.37043372167481,
None,,,,0,1,1,7,,,,,,,,,,,,,,,,,,,,,,,,,,,,,,,,,,,,,,2021_Nov_12_1516,FatFaceOnline,2021.2.3,60.37043372167481,
TrialCondition_B.xlsx,None,,None,0,2,2,1,0,0,0,2,,,,,,,23.699239056091756,None,49.666666666666664,0.8924163220217451,23.997863924014382,None,23.997863924014382,None,-0.0033333333333333335,-0.3788888888888889,1,0,0,NextBu,0.31706398469395936,None,23.997863924014382,None,23.997863924014382,None,1.2068343506453982,25.35414853610564,None,,,,,2021_Nov_12_1516,FatFaceOnline,2021.2.3,60.37043372167481,
TrialCondition_B.xlsx,None,,None,0,2,2,1,0,1,1,1,,,,,,,26.581421196111478,None,49.77777777777778,0.7465246260398999,26.8878326601116,None,26.8878326601116,None,-0.0022222222222222222,-0.37222222222222223,1,0,0,NextBu,0.3183494033291936,None,26.8878326601116,None,26.8878326601116,None,0.9369140593957377,27.623555662110448,None,,,,,2021_Nov_12_1516,FatFaceOnline,2021.2.3,60.37043372167481,
TrialCondition_B.xlsx,None,,None,0,2,2,1,0,2,2,0,,,,,,,28.58270355500281,None,49.77777777777778,1.125696299946867,28.87966990703717,None,28.87966990703717,None,-0.0011111111111111111,-0.3788888888888889,1,0,0,NextBu,0.3088363643037155,None,28.87966990703717,None,28.87966990703717,None,0.8557891199152707,30.089424389065243,None,,,,,2021_Nov_12_1516,FatFaceOnline,2021.2.3,60.37043372167481,
TrialCondition_B.xlsx,,,,0,2,2,1,,,,,,,,,,,,,,,,,,,,,,,,,,,,,,,,,,,,,,2021_Nov_12_1516,FatFaceOnline,2021.2.3,60.37043372167481,
TrialCondition_E.xlsx,Images/sA-F-ver7.jpg,,senioradult,0,3,3,4,0,0,0,3,,,,,,,31.024000062025152,None,50.22222222222222,0.7262389179086313,31.33092815708369,None,31.33092815708369,None,0.0022222222222222222,-0.35777777777777775,1,0,0,NextBu,0.3224451671121642,None,31.33092815708369,None,31.33092815708369,None,0.8327818843515957,32.072596634039655,None,,,,,2021_Nov_12_1516,FatFaceOnline,2021.2.3,60.37043372167481,
TrialCondition_E.xlsx,Images/sA-M-ver7.jpg,,senioradult,0,3,3,4,0,1,1,1,,,,,,,32.9611800420098,None,50.44444444444445,0.6037139979889616,33.24676582601387,None,33.24676582601387,None,0.005555555555555556,-0.35555555555555557,1,0,0,NextBu,0.31634492718148977,None,33.24676582601387,None,33.24676582601387,None,1.058270819290016,34.3670288430294,None,,,,,2021_Nov_12_1516,FatFaceOnline,2021.2.3,60.37043372167481,
TrialCondition_E.xlsx,Images/sA-F-ver1.jpg,,senioradult,0,3,3,4,0,2,2,2,,,,,,,35.492220275104046,None,50.55555555555556,0.6624879559967667,35.77877809701022,None,35.77877809701022,None,0.017777777777777778,-0.37222222222222223,1,0,0,NextBu,0.3137483892496675,None,35.77877809701022,None,35.77877809701022,None,1.4762796220675285,36.66074575402308,None,,,,,2021_Nov_12_1516,FatFaceOnline,2021.2.3,60.37043372167481,
TrialCondition_E.xlsx,Images/sA-M-ver4.jpg,,senioradult,0,3,3,4,0,3,3,0,,,,,,,38.198041402036324,None,50.888888888888886,0.7959729540161788,38.49798748106696,None,38.49798748106696,None,0.008888888888888889,-0.36,1,0,0,NextBu,0.31882054219022393,None,38.49798748106696,None,38.49798748106696,None,0.7842767860811041,39.34605325805023,None,,,,,2021_Nov_12_1516,FatFaceOnline,2021.2.3,60.37043372167481,
TrialCondition_E.xlsx,,,,0,3,3,4,,,,,,,,,,,,,,,,,,,,,,,,,,,,,,,,,,,,,,2021_Nov_12_1516,FatFaceOnline,2021.2.3,60.37043372167481,
TrialCondition_A.xlsx,Images/chld-M-ver3.jpg,,child,0,4,4,0,0,0,0,1,,,,,,,40.184279148001224,None,49.888888888888886,0.7642318319994956,40.48058347799815,None,40.48058347799815,None,0.0,-0.35444444444444445,1,0,0,NextBu,0.31174607493449,None,40.48058347799815,None,40.48058347799815,None,1.1600759014060653,41.73050162801519,None,,,,,2021_Nov_12_1516,FatFaceOnline,2021.2.3,60.37043372167481,
TrialCondition_A.xlsx,None,,None,0,4,4,0,0,1,1,4,,,,,,,42.8985189110972,None,49.77777777777778,0.7877275079954416,43.19724621006753,None,43.19724621006753,None,0.0011111111111111111,-0.37666666666666665,1,0,0,NextBu,0.30980601941701025,None,43.19724621006753,None,43.19724621006753,None,1.3014534316028044,44.13605653506238,None,,,,,2021_Nov_12_1516,FatFaceOnline,2021.2.3,60.37043372167481,
TrialCondition_A.xlsx,None,,None,0,4,4,0,0,2,2,7,,,,,,,45.450892682070844,None,50.22222222222222,0.7178839260013774,45.74789875303395,None,45.74789875303395,None,0.0022222222222222222,-0.3511111111111111,1,0,0,NextBu,0.3082285333657637,None,45.74789875303395,None,45.74789875303395,None,0.5984299337658302,46.53334118903149,None,,,,,2021_Nov_12_1516,FatFaceOnline,2021.2.3,60.37043372167481,
TrialCondition_A.xlsx,Images/chld-M-ver2.jpg,,child,0,4,4,0,0,3,3,0,,,,,,,47.1701463740319,None,49.77777777777778,0.7524903869489208,47.466663452098146,None,47.466663452098146,None,0.0033333333333333335,-0.41,1,0,0,NextBu,0.3113372636726126,None,47.466663452098146,None,47.466663452098146,None,0.5165524979184982,48.25756444199942,None,,,,,2021_Nov_12_1516,FatFaceOnline,2021.2.3,60.37043372167481,
TrialCondition_A.xlsx,Images/chld-F-ver3.jpg,,child,0,4,4,0,0,4,4,3,,,,,,,48.81203840102535,None,49.888888888888886,0.7411553009878844,49.09994700807147,None,49.09994700807147,None,0.0011111111111111111,-0.36666666666666664,1,0,0,NextBu,0.3119504168862477,None,49.09994700807147,None,49.09994700807147,None,0.9008081438293981,50.04609452211298,None,,,,,2021_Nov_12_1516,FatFaceOnline,2021.2.3,60.37043372167481,
TrialCondition_A.xlsx,None,,None,0,4,4,0,0,5,5,5,,,,,,,50.96612516208552,None,50.55555555555556,0.9829678400419652,51.26334239903372,None,51.26334239903372,None,0.005555555555555556,-0.36,1,0,0,NextBu,0.31220571033190936,None,51.26334239903372,None,51.26334239903372,None,1.0882508795588568,52.33247078303248,None,,,,,2021_Nov_12_1516,FatFaceOnline,2021.2.3,60.37043372167481,
TrialCondition_A.xlsx,None,,None,0,4,4,0,0,6,6,12,,,,,,,53.43095850502141,None,49.666666666666664,0.7256111720344052,53.73225338407792,None,53.73225338407792,None,-0.0033333333333333335,-0.4077777777777778,1,0,0,NextBu,0.3163902823580429,None,53.73225338407792,None,53.73225338407792,None,0.741443345998932,54.49952839210164,None,,,,,2021_Nov_12_1516,FatFaceOnline,2021.2.3,60.37043372167481,
