RatingBlock,Image,Race,Trait,Type,RatingBlockOrder.thisRepN,RatingBlockOrder.thisTrialN,RatingBlockOrder.thisN,RatingBlockOrder.thisIndex,Ratingtrials.thisRepN,Ratingtrials.thisTrialN,Ratingtrials.thisN,Ratingtrials.thisIndex,RInstr.started,RInstr.stopped,RKey.keys,RKey.rt,RKey.started,RKey.stopped,image_5.started,image_5.stopped,slider.response,slider.rt,slider.started,slider.stopped,NextBu.started,NextBu.stopped,mouse_5.x,mouse_5.y,mouse_5.leftButton,mouse_5.midButton,mouse_5.rightButton,mouse_5.clicked_name,mouse_5.started,mouse_5.stopped,text_4.started,text_4.stopped,text_5.started,text_5.stopped,ITI,text.started,text.stopped,EndText.started,EndText.stopped,MacID,Gender,Age,Ethnicity (e.g., African, Asian, & Caucasian),date,expName,psychopyVersion,frameRate,
,,,,,,,,,,,,,11.656709207978565,None,space,6.2070573340170085,11.656709207978565,None,,,,,,,,,,,,,,,,,,,,,,,,,,,,,,2021_Oct_11_1935,FatFaceOnline,2021.2.3,60.145281055875515,
TrialCondition_B.csv,Images/S_B_I3_04.png,Black,Dominant,normal,0,0,0,1,0,0,0,23,,,,,,,17.926462707982864,None,60.44444444444444,2.534534457983682,18.205427707987837,None,18.205427707987837,None,0.025555555555555557,-0.39555555555555555,1,0,0,NextBu,0.3139570875209756,None,18.205427707987837,None,18.205427707987837,None,0.749904896576627,21.022033666988136,None,,,,,,,2021_Oct_11_1935,FatFaceOnline,2021.2.3,60.145281055875515,
TrialCondition_B.csv,Images/S_B_I4_03.png,Black,Dominant,normal,0,0,0,1,0,1,1,16,,,,,,,21.77353987499373,None,19.77777777777778,2.441099584015319,22.072191374987597,None,22.072191374987597,None,-0.05555555555555555,-0.37222222222222223,1,0,0,NextBu,0.30885965350898914,None,22.072191374987597,None,22.072191374987597,None,1.3810593458558555,24.90587345798849,None,,,,,,,2021_Oct_11_1935,FatFaceOnline,2021.2.3,60.145281055875515,
TrialCondition_B.csv,Images/S_B_I1_01.png,Black,Submissive,normal,0,0,0,1,0,2,2,0,,,,,,,26.2901967499929,None,59.0,1.1406355829967652,26.589708624989726,None,26.589708624989726,None,0.04,-0.3788888888888889,1,0,0,NextBu,0.3098340294964146,None,26.589708624989726,None,26.589708624989726,None,1.2341264574978061,27.939366374979727,None,,,,,,,2021_Oct_11_1935,FatFaceOnline,2021.2.3,60.145281055875515,
TrialCondition_B.csv,Images/S_B_I2_02.png,Black,Submissive,normal,0,0,0,1,0,3,3,3,,,,,,,29.173559791990556,None,58.77777777777777,0.8737898329854943,29.47308191700722,None,29.47308191700722,None,-0.011111111111111112,-0.3988888888888889,1,0,0,NextBu,0.309113862545928,None,29.47308191700722,None,29.47308191700722,None,0.5195375837618287,30.555930000002263,None,,,,,,,2021_Oct_11_1935,FatFaceOnline,2021.2.3,60.145281055875515,
TrialCondition_B.csv,Images/S_B_I1_03.png,Black,Dominant,normal,0,0,0,1,0,4,4,10,,,,,,,31.090407499985304,None,40.11111111111111,1.1074838750064373,31.389491249981802,None,31.389491249981802,None,-0.04555555555555556,-0.37777777777777777,1,0,0,NextBu,0.3087840715015773,None,31.389491249981802,None,31.389491249981802,None,1.3846046372290925,32.7224062079913,None,,,,,,,2021_Oct_11_1935,FatFaceOnline,2021.2.3,60.145281055875515,
TrialCondition_B.csv,Images/S_B_I1_02.png,Black,Submissive,normal,0,0,0,1,0,5,5,1,,,,,,,34.110982666985365,None,79.66666666666666,2.003238875011448,34.40580129198497,None,34.40580129198497,None,0.01888888888888889,-0.4266666666666667,1,0,0,NextBu,0.30034127851831727,None,34.40580129198497,None,34.40580129198497,None,0.8441558729190392,36.88928791700164,None,,,,,,,2021_Oct_11_1935,FatFaceOnline,2021.2.3,60.145281055875515,
TrialCondition_B.csv,Images/S_B_I3_04.png,Black,Dominant,normal,0,0,0,1,0,6,6,15,,,,,,,37.740434999985155,None,49.888888888888886,1.473768833995564,38.0392535830033,None,38.0392535830033,None,-0.017777777777777778,-0.4166666666666667,1,0,0,NextBu,0.30713461150298826,None,38.0392535830033,None,38.0392535830033,None,1.0514024343643795,39.7390728330065,None,,,,,,,2021_Oct_11_1935,FatFaceOnline,2021.2.3,60.145281055875515,
TrialCondition_B.csv,Images/S_B_I3_02.png,Black,Submissive,normal,0,0,0,1,0,7,7,5,,,,,,,40.79152620799141,None,90.33333333333333,0.989861041016411,41.089071291993605,None,41.089071291993605,None,-0.014444444444444444,-0.3877777777777778,1,0,0,NextBu,0.30680698849027976,None,41.089071291993605,None,41.089071291993605,None,0.9419218426591104,42.37268066700199,None,,,,,,,2021_Oct_11_1935,FatFaceOnline,2021.2.3,60.145281055875515,
TrialCondition_B.csv,Images/S_B_I3_01.png,Black,Submissive,normal,0,0,0,1,0,8,8,4,,,,,,,43.325695124978665,None,59.333333333333336,1.105037250003079,43.62267583300127,None,43.62267583300127,None,-0.008888888888888889,-0.4177777777777778,1,0,0,NextBu,0.30416690348647535,None,43.62267583300127,None,43.62267583300127,None,0.7503347770018056,44.90648524998687,None,,,,,,,2021_Oct_11_1935,FatFaceOnline,2021.2.3,60.145281055875515,
TrialCondition_B.csv,Images/S_B_I2_04.png,Black,Dominant,normal,0,0,0,1,0,9,9,13,,,,,,,45.65714012499666,None,40.33333333333333,1.0577790829993319,45.956917624978814,None,45.956917624978814,None,-0.04666666666666667,-0.3888888888888889,1,0,0,NextBu,0.31065344548551366,None,45.956917624978814,None,45.956917624978814,None,1.4204485756678864,47.156213499984005,None,,,,,,,2021_Oct_11_1935,FatFaceOnline,2021.2.3,60.145281055875515,
TrialCondition_B.csv,Images/S_B_I5_04.png,Black,Dominant,normal,0,0,0,1,0,10,10,19,,,,,,,48.59167720799451,None,20.444444444444443,1.1060767910094,48.88929175000521,None,48.88929175000521,None,-0.09,-0.39111111111111113,1,0,0,NextBu,0.3062509864976164,None,48.88929175000521,None,48.88929175000521,None,0.736659657919086,50.23936616699211,None,,,,,,,2021_Oct_11_1935,FatFaceOnline,2021.2.3,60.145281055875515,
TrialCondition_B.csv,Images/S_B_I4_04.png,Black,Dominant,normal,0,0,0,1,0,11,11,17,,,,,,,50.98918158299057,None,51.0,1.1762161249935161,51.29020245798165,None,51.29020245798165,None,0.021111111111111112,-0.38,1,0,0,NextBu,0.3118699465121608,None,51.29020245798165,None,51.29020245798165,None,0.6756578710453394,52.639060582994716,None,,,,,,,2021_Oct_11_1935,FatFaceOnline,2021.2.3,60.145281055875515,
TrialCondition_B.csv,Images/S_B_I3_03.png,Black,Dominant,normal,0,0,0,1,0,12,12,14,,,,,,,53.32452879199991,None,64.33333333333333,0.9231277919898275,53.622834791982314,None,53.622834791982314,None,-0.035555555555555556,-0.4266666666666667,1,0,0,NextBu,0.3075367374694906,None,53.622834791982314,None,53.622834791982314,None,0.7985329459333869,54.88936962498701,None,,,,,,,2021_Oct_11_1935,FatFaceOnline,2021.2.3,60.145281055875515,
TrialCondition_B.csv,Images/S_B_I5_01.png,Black,Submissive,normal,0,0,0,1,0,13,13,8,,,,,,,55.69024333299603,None,74.8888888888889,1.058776999998372,55.990457832987886,None,55.990457832987886,None,0.011111111111111112,-0.4022222222222222,1,0,0,NextBu,0.31022515351651236,None,55.990457832987886,None,55.990457832987886,None,0.694999191209652,57.27204537499347,None,,,,,,,2021_Oct_11_1935,FatFaceOnline,2021.2.3,60.145281055875515,
TrialCondition_B.csv,Images/S_B_I2_03.png,Black,Dominant,normal,0,0,0,1,0,14,14,22,,,,,,,57.974354000005405,None,57.666666666666664,2.1730463330168277,58.27355899999384,None,58.27355899999384,None,0.04666666666666667,-0.38222222222222224,1,0,0,NextBu,0.30720994650619105,None,58.27355899999384,None,58.27355899999384,None,0.588208920307085,60.57244720798917,None,,,,,,,2021_Oct_11_1935,FatFaceOnline,2021.2.3,60.145281055875515,
TrialCondition_B.csv,Images/S_B_I4_02.png,Black,Submissive,normal,0,0,0,1,0,15,15,21,,,,,,,61.1736871250032,None,41.22222222222222,1.0086226249986794,61.47354424998048,None,61.47354424998048,None,-0.06777777777777778,-0.38,1,0,0,NextBu,0.3108634455129504,None,61.47354424998048,None,61.47354424998048,None,1.2968111088228922,62.723413542000344,None,,,,,,,2021_Oct_11_1935,FatFaceOnline,2021.2.3,60.145281055875515,
TrialCondition_B.csv,Images/S_B_I4_01.png,Black,Submissive,normal,0,0,0,1,0,16,16,6,,,,,,,64.023948749993,None,26.222222222222225,0.9747452920128126,64.32294754197937,None,64.32294754197937,None,-0.04111111111111111,-0.4,1,0,0,NextBu,0.30906290453276597,None,64.32294754197937,None,64.32294754197937,None,1.0411081739132135,65.57307029198273,None,,,,,,,2021_Oct_11_1935,FatFaceOnline,2021.2.3,60.145281055875515,
TrialCondition_B.csv,Images/S_B_I5_02.png,Black,Submissive,normal,0,0,0,1,0,17,17,9,,,,,,,66.62343974999385,None,61.66666666666667,0.7412519579811487,66.9229093749891,None,66.9229093749891,None,0.0077777777777777776,-0.41888888888888887,1,0,0,NextBu,0.3104745714808814,None,66.9229093749891,None,66.9229093749891,None,1.1606761922145488,67.82279979198938,None,,,,,,,2021_Oct_11_1935,FatFaceOnline,2021.2.3,60.145281055875515,
TrialCondition_B.csv,Images/S_B_I5_03.png,Black,Dominant,normal,0,0,0,1,0,18,18,18,,,,,,,68.98982983297901,None,61.111111111111114,2.14255487502669,69.29041037498973,None,69.29041037498973,None,0.03,-0.42,1,0,0,NextBu,0.31121427851030603,None,69.29041037498973,None,69.29041037498973,None,1.440689763530139,71.62335170799633,None,,,,,,,2021_Oct_11_1935,FatFaceOnline,2021.2.3,60.145281055875515,
TrialCondition_B.csv,Images/S_B_I2_03.png,Black,Dominant,normal,0,0,0,1,0,19,19,12,,,,,,,73.0729562919878,None,55.111111111111114,0.7923427499772515,73.37347808299819,None,73.37347808299819,None,-0.01,-0.38333333333333336,1,0,0,NextBu,0.31243511245702393,None,73.37347808299819,None,73.37347808299819,None,1.2244280625950563,74.3562937079987,None,,,,,,,2021_Oct_11_1935,FatFaceOnline,2021.2.3,60.145281055875515,
TrialCondition_B.csv,Images/S_B_I3_01.png,Black,Submissive,normal,0,0,0,1,0,20,20,20,,,,,,,75.59362920798594,None,48.55555555555556,1.2537773750082124,75.88937191700097,None,75.88937191700097,None,-0.034444444444444444,-0.4011111111111111,1,0,0,NextBu,0.3022124455019366,None,75.88937191700097,None,75.88937191700097,None,1.0900391443469077,77.33945887497975,None,,,,,,,2021_Oct_11_1935,FatFaceOnline,2021.2.3,60.145281055875515,
TrialCondition_B.csv,Images/S_B_I1_04.png,Black,Dominant,normal,0,0,0,1,0,21,21,11,,,,,,,78.44216212499305,None,34.77777777777777,1.2392770000151359,78.73959924999508,None,78.73959924999508,None,-0.012222222222222223,-0.4122222222222222,1,0,0,NextBu,0.3057576545397751,None,78.73959924999508,None,78.73959924999508,None,1.3881047291241053,80.25637658298365,None,,,,,,,2021_Oct_11_1935,FatFaceOnline,2021.2.3,60.145281055875515,
TrialCondition_B.csv,Images/S_B_I4_02.png,Black,Submissive,normal,0,0,0,1,0,22,22,7,,,,,,,81.65704633298446,None,67.0,1.258112165989587,81.95631970799877,None,81.95631970799877,None,0.023333333333333334,-0.37444444444444447,1,0,0,NextBu,0.31038761147647165,None,81.95631970799877,None,81.95631970799877,None,0.5535293851062788,83.42322470800718,None,,,,,,,2021_Oct_11_1935,FatFaceOnline,2021.2.3,60.145281055875515,
TrialCondition_B.csv,Images/S_B_I2_01.png,Black,Submissive,normal,0,0,0,1,0,23,23,2,,,,,,,83.99023341698921,None,35.55555555555556,3.275543750001816,84.28973666697857,None,84.28973666697857,None,-0.015555555555555555,-0.4022222222222222,1,0,0,NextBu,0.3098474874859676,None,84.28973666697857,None,84.28973666697857,None,0.7318404465308207,87.75685554198571,None,,,,,,,2021_Oct_11_1935,FatFaceOnline,2021.2.3,60.145281055875515,
TrialCondition_B.csv,,,,,0,0,0,1,,,,,,,,,,,,,,,,,,,,,,,,,,,,,,,,,,,,,,,,2021_Oct_11_1935,FatFaceOnline,2021.2.3,60.145281055875515,
TrialCondition_C.csv,Images/S_C_I2_03.png,Caucasian,Dominant,normal,0,1,1,2,0,0,0,2,,,,,,,88.49972895800602,None,24.444444444444446,2.132478416984668,88.79080575000262,None,88.79080575000262,None,-0.027777777777777776,-0.3844444444444444,1,0,0,NextBu,0.30952497498947196,None,88.79080575000262,None,88.79080575000262,None,1.0603358127804374,91.22228066698881,None,,,,,,,2021_Oct_11_1935,FatFaceOnline,2021.2.3,60.145281055875515,
TrialCondition_C.csv,Images/S_C_I5_03.png,Caucasian,Dominant,normal,0,1,1,2,0,1,1,8,,,,,,,92.2915996669908,None,60.66666666666667,0.7239298750064336,92.59015758300666,None,92.59015758300666,None,0.03222222222222222,-0.4033333333333333,1,0,0,NextBu,0.3081918624811806,None,92.59015758300666,None,92.59015758300666,None,0.5567622538378385,93.52346720799687,None,,,,,,,2021_Oct_11_1935,FatFaceOnline,2021.2.3,60.145281055875515,
TrialCondition_C.csv,Images/S_C_I4_02.png,Caucasian,Submissive,normal,0,1,1,2,0,2,2,17,,,,,,,94.08998225000687,None,78.33333333333333,0.8266548749816138,94.3907607079891,None,94.3907607079891,None,-0.06222222222222222,-0.4111111111111111,1,0,0,NextBu,0.3133257374865934,None,94.3907607079891,None,94.3907607079891,None,1.3352615892884383,95.45686274999753,None,,,,,,,2021_Oct_11_1935,FatFaceOnline,2021.2.3,60.145281055875515,
TrialCondition_C.csv,Images/S_C_I4_03.png,Caucasian,Dominant,normal,0,1,1,2,0,3,3,6,,,,,,,96.80740845800028,None,16.333333333333332,0.991369166993536,97.10648091699113,None,97.10648091699113,None,-0.03777777777777778,-0.3788888888888889,1,0,0,NextBu,0.3092632374900859,None,97.10648091699113,None,97.10648091699113,None,1.0312228509546622,98.40636758299661,None,,,,,,,2021_Oct_11_1935,FatFaceOnline,2021.2.3,60.145281055875515,
TrialCondition_C.csv,Images/S_C_I3_04.png,Caucasian,Dominant,normal,0,1,1,2,0,4,4,5,,,,,,,99.44125258299755,None,51.77777777777778,0.9241762080055196,99.74031991697848,None,99.74031991697848,None,-0.01,-0.38666666666666666,1,0,0,NextBu,0.3092360294831451,None,99.74031991697848,None,99.74031991697848,None,1.4173126891564978,100.85569620798924,None,,,,,,,2021_Oct_11_1935,FatFaceOnline,2021.2.3,60.145281055875515,
TrialCondition_C.csv,Images/S_C_I2_04.png,Caucasian,Dominant,normal,0,1,1,2,0,5,5,21,,,,,,,102.27515258299536,None,48.11111111111111,1.3737239579786547,102.57344499998726,None,102.57344499998726,None,-0.056666666666666664,-0.36333333333333334,1,0,0,NextBu,0.30778669548453763,None,102.57344499998726,None,102.57344499998726,None,0.9380613346031039,104.84111570799723,None,,,,,,,2021_Oct_11_1935,FatFaceOnline,2021.2.3,60.145281055875515,
TrialCondition_C.csv,Images/S_C_I1_02.png,Caucasian,Submissive,normal,0,1,1,2,0,6,6,11,,,,,,,105.7919793750043,None,29.000000000000004,1.3902967920002993,106.09102479199646,None,106.09102479199646,None,-0.015555555555555555,-0.39555555555555555,1,0,0,NextBu,0.30822011150303297,None,106.09102479199646,None,106.09102479199646,None,0.7715316813049145,107.90641312499065,None,,,,,,,2021_Oct_11_1935,FatFaceOnline,2021.2.3,60.145281055875515,
TrialCondition_C.csv,Images/S_C_I1_03.png,Caucasian,Dominant,normal,0,1,1,2,0,7,7,20,,,,,,,108.69067383298534,None,52.11111111111111,0.8415605829795823,108.98986908298684,None,108.98986908298684,None,0.015555555555555555,-0.3844444444444444,1,0,0,NextBu,0.3097780695243273,None,108.98986908298684,None,108.98986908298684,None,1.0919017968860998,110.1398929579882,None,,,,,,,2021_Oct_11_1935,FatFaceOnline,2021.2.3,60.145281055875515,
TrialCondition_C.csv,Images/S_C_I4_01.png,Caucasian,Submissive,normal,0,1,1,2,0,8,8,16,,,,,,,111.2412631670013,None,89.88888888888889,1.3077872500289232,111.54040237498702,None,111.54040237498702,None,0.06666666666666667,-0.3711111111111111,1,0,0,NextBu,0.30819094547769055,None,111.54040237498702,None,111.54040237498702,None,1.3271527038295752,113.4567608749785,None,,,,,,,2021_Oct_11_1935,FatFaceOnline,2021.2.3,60.145281055875515,
TrialCondition_C.csv,Images/S_C_I5_04.png,Caucasian,Dominant,normal,0,1,1,2,0,9,9,9,,,,,,,114.79129666698282,None,50.44444444444445,2.4244015000003856,115.09059908299241,None,115.09059908299241,None,0.0033333333333333335,-0.42333333333333334,1,0,0,NextBu,0.308903488505166,None,115.09059908299241,None,115.09059908299241,None,0.9923585382614363,118.95686637499603,None,,,,,,,2021_Oct_11_1935,FatFaceOnline,2021.2.3,60.145281055875515,
TrialCondition_C.csv,Images/S_C_I4_04.png,Caucasian,Dominant,normal,0,1,1,2,0,10,10,7,,,,,,,119.95969299998251,None,30.666666666666664,1.4054650000180118,120.2567858749826,None,120.2567858749826,None,-0.011111111111111112,-0.4255555555555556,1,0,0,NextBu,0.3043456125014927,None,120.2567858749826,None,120.2567858749826,None,0.9727501518285517,121.92330274998676,None,,,,,,,2021_Oct_11_1935,FatFaceOnline,2021.2.3,60.145281055875515,
TrialCondition_C.csv,Images/S_C_I3_01.png,Caucasian,Submissive,normal,0,1,1,2,0,11,11,23,,,,,,,122.90722620798624,None,40.22222222222222,2.759478708001552,123.20756974999676,None,123.20756974999676,None,-0.014444444444444444,-0.3788888888888889,1,0,0,NextBu,0.31186027848161757,None,123.20756974999676,None,123.20756974999676,None,1.0158766326488946,127.4067170000053,None,,,,,,,2021_Oct_11_1935,FatFaceOnline,2021.2.3,60.145281055875515,
TrialCondition_C.csv,Images/S_C_I2_02.png,Caucasian,Submissive,normal,0,1,1,2,0,12,12,13,,,,,,,128.42631199999596,None,59.44444444444444,1.122707124974113,128.7234330829815,None,128.7234330829815,None,-0.023333333333333334,-0.4122222222222222,1,0,0,NextBu,0.3042291954916436,None,128.7234330829815,None,128.7234330829815,None,1.1973711359410237,130.12395970799844,None,,,,,,,2021_Oct_11_1935,FatFaceOnline,2021.2.3,60.145281055875515,
TrialCondition_C.csv,Images/S_C_I3_01.png,Caucasian,Submissive,normal,0,1,1,2,0,13,13,14,,,,,,,131.32388491698657,None,23.11111111111111,1.042995041992981,131.62467216700315,None,131.62467216700315,None,0.0044444444444444444,-0.39444444444444443,1,0,0,NextBu,0.31255077847163193,None,131.62467216700315,None,131.62467216700315,None,0.7712295561406175,133.35684645798756,None,,,,,,,2021_Oct_11_1935,FatFaceOnline,2021.2.3,60.145281055875515,
TrialCondition_C.csv,Images/S_C_I5_02.png,Caucasian,Submissive,normal,0,1,1,2,0,14,14,19,,,,,,,134.1417524999997,None,50.66666666666667,1.5081362079945393,134.44031158299185,None,134.44031158299185,None,0.027777777777777776,-0.3811111111111111,1,0,0,NextBu,0.3070650295121595,None,134.44031158299185,None,134.44031158299185,None,0.7131809286458212,136.22352212498663,None,,,,,,,2021_Oct_11_1935,FatFaceOnline,2021.2.3,60.145281055875515,
TrialCondition_C.csv,Images/S_C_I1_03.png,Caucasian,Dominant,normal,0,1,1,2,0,15,15,0,,,,,,,136.9406983749941,None,40.888888888888886,1.4588513339986093,137.24077195799327,None,137.24077195799327,None,-0.012222222222222223,-0.36,1,0,0,NextBu,0.3110651114839129,None,137.24077195799327,None,137.24077195799327,None,0.845395154299729,139.02351191698108,None,,,,,,,2021_Oct_11_1935,FatFaceOnline,2021.2.3,60.145281055875515,
TrialCondition_C.csv,Images/S_C_I1_04.png,Caucasian,Dominant,normal,0,1,1,2,0,16,16,1,,,,,,,139.8756164170045,None,50.33333333333333,1.639607499993872,140.1736769999843,None,140.1736769999843,None,0.043333333333333335,-0.37666666666666665,1,0,0,NextBu,0.3062061124655884,None,140.1736769999843,None,140.1736769999843,None,0.6560176320111825,142.07372483299696,None,,,,,,,2021_Oct_11_1935,FatFaceOnline,2021.2.3,60.145281055875515,
TrialCondition_C.csv,Images/S_C_I3_02.png,Caucasian,Submissive,normal,0,1,1,2,0,17,17,15,,,,,,,142.7418767499912,None,38.666666666666664,1.7074529999808874,143.04018379200716,None,143.04018379200716,None,0.03111111111111111,-0.3788888888888889,1,0,0,NextBu,0.3081068635219708,None,143.04018379200716,None,143.04018379200716,None,0.5279542297715843,145.03962554200552,None,,,,,,,2021_Oct_11_1935,FatFaceOnline,2021.2.3,60.145281055875515,
TrialCondition_C.csv,Images/S_C_I1_01.png,Caucasian,Submissive,normal,0,1,1,2,0,18,18,10,,,,,,,145.573406874988,None,69.88888888888889,1.293315832997905,145.87371312498,None,145.87371312498,None,0.05444444444444444,-0.36444444444444446,1,0,0,NextBu,0.3132025715021882,None,145.87371312498,None,145.87371312498,None,0.9092341730935056,147.44023604199174,None,,,,,,,2021_Oct_11_1935,FatFaceOnline,2021.2.3,60.145281055875515,
TrialCondition_C.csv,Images/S_C_I3_03.png,Caucasian,Dominant,normal,0,1,1,2,0,19,19,4,,,,,,,148.3580999999831,None,59.77777777777777,0.924733040999854,148.65714854199905,None,148.65714854199905,None,-0.0077777777777777776,-0.3933333333333333,1,0,0,NextBu,0.3106854035286233,None,148.65714854199905,None,148.65714854199905,None,0.997148392280005,149.75666095799534,None,,,,,,,2021_Oct_11_1935,FatFaceOnline,2021.2.3,60.145281055875515,
TrialCondition_C.csv,Images/S_C_I5_01.png,Caucasian,Submissive,normal,0,1,1,2,0,20,20,18,,,,,,,150.75664404200506,None,34.0,1.0768549169879407,151.05722820799565,None,151.05722820799565,None,-0.024444444444444446,-0.36333333333333334,1,0,0,NextBu,0.3129936125187669,None,151.05722820799565,None,151.05722820799565,None,1.2740795999636245,153.07361691698316,None,,,,,,,2021_Oct_11_1935,FatFaceOnline,2021.2.3,60.145281055875515,
TrialCondition_C.csv,Images/S_C_I2_01.png,Caucasian,Submissive,normal,0,1,1,2,0,21,21,12,,,,,,,154.35856658298871,None,48.333333333333336,0.9076847499818541,154.65750270799617,None,154.65750270799617,None,0.0011111111111111111,-0.37555555555555553,1,0,0,NextBu,0.31068819548818283,None,154.65750270799617,None,154.65750270799617,None,0.7716131109113183,155.77382354199653,None,,,,,,,2021_Oct_11_1935,FatFaceOnline,2021.2.3,60.145281055875515,
TrialCondition_C.csv,Images/S_C_I2_04.png,Caucasian,Dominant,normal,0,1,1,2,0,22,22,3,,,,,,,156.55753758299397,None,48.66666666666667,1.575754000019515,156.85713412499172,None,156.85713412499172,None,-0.0011111111111111111,-0.3688888888888889,1,0,0,NextBu,0.3108673625101801,None,156.85713412499172,None,156.85713412499172,None,0.6857606744466742,158.79054950000136,None,,,,,,,2021_Oct_11_1935,FatFaceOnline,2021.2.3,60.145281055875515,
TrialCondition_C.csv,Images/S_C_I1_02.png,Caucasian,Submissive,normal,0,1,1,2,0,23,23,22,,,,,,,159.4907731669955,None,42.55555555555556,2.1258743749931455,159.79098024999257,None,159.79098024999257,None,-0.0011111111111111111,-0.3811111111111111,1,0,0,NextBu,0.31314198748441413,None,159.79098024999257,None,159.79098024999257,None,0.9857383598730722,162.1239465419785,None,,,,,,,2021_Oct_11_1935,FatFaceOnline,2021.2.3,60.145281055875515,
TrialCondition_C.csv,,,,,0,1,1,2,,,,,,,,,,,,,,,,,,,,,,,,,,,,,,,,,,,,,,,,2021_Oct_11_1935,FatFaceOnline,2021.2.3,60.145281055875515,
TrialCondition_A.csv,Images/S_A_I5_02.png,Asian,Submissive,normal,0,2,2,0,0,0,0,19,,,,,,,163.1325658329879,None,32.111111111111114,1.2675874170090538,163.42495424998924,None,163.42495424998924,None,-0.03888888888888889,-0.37444444444444447,1,0,0,NextBu,0.3124620579765178,None,163.42495424998924,None,163.42495424998924,None,1.3998155278962523,165.2404282919888,None,,,,,,,2021_Oct_11_1935,FatFaceOnline,2021.2.3,60.145281055875515,
TrialCondition_A.csv,Images/S_A_I2_03.png,Asian,Dominant,normal,0,2,2,0,0,1,1,2,,,,,,,166.6422905419895,None,46.33333333333333,1.1065872909966856,166.94046662500477,None,166.94046662500477,None,0.02,-0.4077777777777778,1,0,0,NextBu,0.3078926544985734,None,166.94046662500477,None,166.94046662500477,None,0.7452994811522933,168.20702912498382,None,,,,,,,2021_Oct_11_1935,FatFaceOnline,2021.2.3,60.145281055875515,
TrialCondition_A.csv,Images/S_A_I1_02.png,Asian,Submissive,normal,0,2,2,0,0,2,2,11,,,,,,,168.95736612498877,None,74.33333333333334,1.4770211249997374,169.2578922919929,None,169.2578922919929,None,0.06555555555555556,-0.39111111111111113,1,0,0,NextBu,0.31342019551084377,None,169.2578922919929,None,169.2578922919929,None,1.1274861905650635,171.007870750007,None,,,,,,,2021_Oct_11_1935,FatFaceOnline,2021.2.3,60.145281055875515,
TrialCondition_A.csv,Images/S_A_I3_02.png,Asian,Submissive,normal,0,2,2,0,0,3,3,15,,,,,,,172.14091445799568,None,29.555555555555557,1.0093838330067229,172.44172612499096,None,172.44172612499096,None,0.03777777777777778,-0.3711111111111111,1,0,0,NextBu,0.31161869451170787,None,172.44172612499096,None,172.44172612499096,None,0.7316515294442099,173.70753579199663,None,,,,,,,2021_Oct_11_1935,FatFaceOnline,2021.2.3,60.145281055875515,
TrialCondition_A.csv,Images/S_A_I2_01.png,Asian,Submissive,normal,0,2,2,0,0,4,4,12,,,,,,,174.4420749580022,None,55.333333333333336,1.0247839169751387,174.7408653750026,None,174.7408653750026,None,0.03111111111111111,-0.4,1,0,0,NextBu,0.30920165448333137,None,174.7408653750026,None,174.7408653750026,None,1.4467357292797898,175.95815287498408,None,,,,,,,2021_Oct_11_1935,FatFaceOnline,2021.2.3,60.145281055875515,
TrialCondition_A.csv,Images/S_A_I5_03.png,Asian,Dominant,normal,0,2,2,0,0,5,5,8,,,,,,,177.40945412497967,None,45.666666666666664,0.9896784170123283,177.70695712498855,None,177.70695712498855,None,-0.01,-0.38222222222222224,1,0,0,NextBu,0.3071946955169551,None,177.70695712498855,None,177.70695712498855,None,1.1535059571714465,178.84090599999763,None,,,,,,,2021_Oct_11_1935,FatFaceOnline,2021.2.3,60.145281055875515,
TrialCondition_A.csv,Images/S_A_I3_03.png,Asian,Dominant,normal,0,2,2,0,0,6,6,21,,,,,,,180.00966891698772,None,44.333333333333336,1.1227533750061411,180.30739199998789,None,180.30739199998789,None,-0.021111111111111112,-0.3566666666666667,1,0,0,NextBu,0.305541779496707,None,180.30739199998789,None,180.30739199998789,None,0.5989568251947055,181.64087395800743,None,,,,,,,2021_Oct_11_1935,FatFaceOnline,2021.2.3,60.145281055875515,
TrialCondition_A.csv,Images/S_A_I1_02.png,Asian,Submissive,normal,0,2,2,0,0,7,7,22,,,,,,,182.25615187498624,None,41.0,1.2246933749993332,182.54098020799574,None,182.54098020799574,None,-0.01888888888888889,-0.37777777777777777,1,0,0,NextBu,0.3114394034491852,None,182.54098020799574,None,182.54098020799574,None,0.8020797283739355,183.9581047919928,None,,,,,,,2021_Oct_11_1935,FatFaceOnline,2021.2.3,60.145281055875515,
TrialCondition_A.csv,Images/S_A_I4_03.png,Asian,Dominant,normal,0,2,2,0,0,8,8,6,,,,,,,184.7751563329948,None,52.55555555555556,1.00940220800112,185.07375504198717,None,185.07375504198717,None,0.0033333333333333335,-0.41555555555555557,1,0,0,NextBu,0.31114444552804343,None,185.07375504198717,None,185.07375504198717,None,1.2476016071662572,186.24091941700317,None,,,,,,,2021_Oct_11_1935,FatFaceOnline,2021.2.3,60.145281055875515,
TrialCondition_A.csv,Images/S_A_I2_02.png,Asian,Submissive,normal,0,2,2,0,0,9,9,13,,,,,,,187.49312299999292,None,50.55555555555556,0.7737149159947876,187.791849250003,None,187.791849250003,None,0.0033333333333333335,-0.41333333333333333,1,0,0,NextBu,0.3078703624778427,None,187.791849250003,None,187.791849250003,None,0.9141086530078278,188.7735652079864,None,,,,,,,2021_Oct_11_1935,FatFaceOnline,2021.2.3,60.145281055875515,
TrialCondition_A.csv,Images/S_A_I5_04.png,Asian,Dominant,normal,0,2,2,0,0,10,10,9,,,,,,,189.69183399999747,None,75.77777777777777,1.6076429999957327,189.99158516697935,None,189.99158516697935,None,0.07333333333333333,-0.39444444444444443,1,0,0,NextBu,0.3096975294756703,None,189.99158516697935,None,189.99158516697935,None,0.6039405836941295,191.97417191698332,None,,,,,,,2021_Oct_11_1935,FatFaceOnline,2021.2.3,60.145281055875515,
TrialCondition_A.csv,Images/S_A_I4_01.png,Asian,Submissive,normal,0,2,2,0,0,11,11,23,,,,,,,192.59092200000305,None,74.66666666666667,0.9090163329965435,192.89096616700408,None,192.89096616700408,None,0.0033333333333333335,-0.4033333333333333,1,0,0,NextBu,0.31142290445859544,None,192.89096616700408,None,192.89096616700408,None,1.4147650174300948,194.6738358750008,None,,,,,,,2021_Oct_11_1935,FatFaceOnline,2021.2.3,60.145281055875515,
TrialCondition_A.csv,Images/S_A_I4_01.png,Asian,Submissive,normal,0,2,2,0,0,12,12,16,,,,,,,196.09182695799973,None,63.888888888888886,1.5082352090103086,196.39110229199287,None,196.39110229199287,None,-0.012222222222222223,-0.38,1,0,0,NextBu,0.3100038204865996,None,196.39110229199287,None,196.39110229199287,None,1.3812540064174645,198.07402708299924,None,,,,,,,2021_Oct_11_1935,FatFaceOnline,2021.2.3,60.145281055875515,
TrialCondition_A.csv,Images/S_A_I2_04.png,Asian,Dominant,normal,0,2,2,0,0,13,13,3,,,,,,,199.45796366699506,None,59.88888888888889,0.908603750023758,199.75808670799597,None,199.75808670799597,None,0.022222222222222223,-0.39111111111111113,1,0,0,NextBu,0.311017403495498,None,199.75808670799597,None,199.75808670799597,None,1.3596187097371968,200.90732825000305,None,,,,,,,2021_Oct_11_1935,FatFaceOnline,2021.2.3,60.145281055875515,
TrialCondition_A.csv,Images/S_A_I3_04.png,Asian,Dominant,normal,0,2,2,0,0,14,14,5,,,,,,,202.27520791700226,None,57.00000000000001,0.740909666987136,202.5740143749863,None,202.5740143749863,None,-0.013333333333333334,-0.37666666666666665,1,0,0,NextBu,0.30887898651417345,None,202.5740143749863,None,202.5740143749863,None,1.0694388233126755,203.65769166700193,None,,,,,,,2021_Oct_11_1935,FatFaceOnline,2021.2.3,60.145281055875515,
TrialCondition_A.csv,Images/S_A_I1_01.png,Asian,Submissive,normal,0,2,2,0,0,15,15,10,,,,,,,204.74271849999786,None,45.22222222222222,1.1572719579853583,205.04163637498277,None,205.04163637498277,None,-0.03,-0.3655555555555556,1,0,0,NextBu,0.30760365349124186,None,205.04163637498277,None,205.04163637498277,None,1.4874441118290924,206.39057499999763,None,,,,,,,2021_Oct_11_1935,FatFaceOnline,2021.2.3,60.145281055875515,
TrialCondition_A.csv,Images/S_A_I1_03.png,Asian,Dominant,normal,0,2,2,0,0,16,16,0,,,,,,,207.89125437499024,None,46.33333333333333,0.7756827500124928,208.19192099999054,None,208.19192099999054,None,0.0044444444444444444,-0.36444444444444446,1,0,0,NextBu,0.3123047795088496,None,208.19192099999054,None,208.19192099999054,None,0.7751395629922708,210.0903574579861,None,,,,,,,2021_Oct_11_1935,FatFaceOnline,2021.2.3,60.145281055875515,
TrialCondition_A.csv,Images/S_A_I1_04.png,Asian,Dominant,normal,0,2,2,0,0,17,17,1,,,,,,,210.87567675000173,None,48.55555555555556,1.1232307090249378,211.17449908299022,None,211.17449908299022,None,0.015555555555555555,-0.4088888888888889,1,0,0,NextBu,0.3073811544745695,None,211.17449908299022,None,211.17449908299022,None,1.2361246745631447,212.89155062500504,None,,,,,,,2021_Oct_11_1935,FatFaceOnline,2021.2.3,60.145281055875515,
TrialCondition_A.csv,Images/S_A_I3_01.png,Asian,Submissive,normal,0,2,2,0,0,18,18,14,,,,,,,214.1414431250014,None,35.88888888888889,0.7260539169947151,214.44239312500576,None,214.44239312500576,None,-0.03111111111111111,-0.36444444444444446,1,0,0,NextBu,0.31342515448341146,None,214.44239312500576,None,214.44239312500576,None,0.5333869307267084,215.37521629198454,None,,,,,,,2021_Oct_11_1935,FatFaceOnline,2021.2.3,60.145281055875515,
TrialCondition_A.csv,Images/S_A_I5_01.png,Asian,Submissive,normal,0,2,2,0,0,19,19,18,,,,,,,215.90853449999122,None,51.77777777777778,1.2781431660114322,216.2077887079795,None,216.2077887079795,None,0.034444444444444444,-0.4288888888888889,1,0,0,NextBu,0.3150416954886168,None,216.2077887079795,None,216.2077887079795,None,1.3046153954001234,217.8580357079918,None,,,,,,,2021_Oct_11_1935,FatFaceOnline,2021.2.3,60.145281055875515,
TrialCondition_A.csv,Images/S_A_I4_04.png,Asian,Dominant,normal,0,2,2,0,0,20,20,7,,,,,,,219.17521441698773,None,53.0,3.275915583013557,219.47449441699428,None,219.47449441699428,None,0.005555555555555556,-0.38333333333333336,1,0,0,NextBu,0.31248602955020033,None,219.47449441699428,None,219.47449441699428,None,0.7569268075061583,223.55796445798478,None,,,,,,,2021_Oct_11_1935,FatFaceOnline,2021.2.3,60.145281055875515,
TrialCondition_A.csv,Images/S_A_I4_02.png,Asian,Submissive,normal,0,2,2,0,0,21,21,17,,,,,,,224.32673079200322,None,43.333333333333336,1.6563381250016391,224.62512683297973,None,224.62512683297973,None,-0.022222222222222223,-0.38,1,0,0,NextBu,0.3056943204719573,None,224.62512683297973,None,224.62512683297973,None,0.9068035561104485,226.62450145799085,None,,,,,,,2021_Oct_11_1935,FatFaceOnline,2021.2.3,60.145281055875515,
TrialCondition_A.csv,Images/S_A_I3_03.png,Asian,Dominant,normal,0,2,2,0,0,22,22,4,,,,,,,227.54393137499574,None,32.77777777777778,1.3394887909817044,227.84143366699573,None,227.84143366699573,None,-0.058888888888888886,-0.3788888888888889,1,0,0,NextBu,0.305623154505156,None,227.84143366699573,None,227.84143366699573,None,0.6140241078447178,229.44118525000522,None,,,,,,,2021_Oct_11_1935,FatFaceOnline,2021.2.3,60.145281055875515,
TrialCondition_A.csv,Images/S_A_I1_04.png,Asian,Dominant,normal,0,2,2,0,0,23,23,20,,,,,,,230.05880312499357,None,37.44444444444445,1.3250622079940513,230.35787070798688,None,230.35787070798688,None,-0.027777777777777776,-0.4022222222222222,1,0,0,NextBu,0.3097309455042705,None,230.35787070798688,None,230.35787070798688,None,0.8731749130831878,236.19121499999892,None,,,,,,,2021_Oct_11_1935,FatFaceOnline,2021.2.3,60.145281055875515,
TrialCondition_A.csv,,,,,0,2,2,0,,,,,,,,,,,,,,,,,,,,,,,,,,,,,,,,,,,,,,,,2021_Oct_11_1935,FatFaceOnline,2021.2.3,60.145281055875515,
,,,,,,,,,,,,,,,,,,,,,,,,,,,,,,,,,,,,,,,,,,237.0754842919996,None,,,,,,,,,
